Time (?)	Temperature	Kinetic energy (?)	Potential Energy (?)	Number Density	Pressure
0.00997765	2.34558	14073.5	-2861.82	46.188	108.522
0.109754	2.30518	13831.1	-2619.57	46.188	106.656
0.209531	2.28531	13711.8	-2500.44	46.188	105.738
0.309307	2.25959	13557.6	-2346.17	46.188	104.551
0.409084	2.22166	13330	-2118.56	46.188	102.801
0.50886	2.17727	13063.6	-1852.19	46.188	100.752
0.608637	2.13599	12815.9	-1604.46	46.188	98.8467
0.708413	2.10669	12640.1	-1428.63	46.188	97.4941
0.80819	2.09526	12571.5	-1360.02	46.188	96.9663
0.907966	2.10385	12623.1	-1411.6	46.188	97.3629
1.00774	2.13093	12785.6	-1574.11	46.188	98.6127
1.10752	2.17123	13027.4	-1815.94	46.188	100.473
1.2073	2.21711	13302.6	-2091.2	46.188	102.591
1.30707	2.26231	13573.8	-2362.39	46.188	104.678
1.40685	2.30527	13831.6	-2620.14	46.188	106.661
1.50663	2.34731	14083.9	-2872.4	46.188	108.602
1.6064	2.38862	14331.7	-3120.3	46.188	110.509
1.70618	2.42731	14563.8	-3352.4	46.188	112.295
1.80596	2.46087	14765.2	-3553.76	46.188	113.843
1.90573	2.48768	14926.1	-3714.68	46.188	115.081
2.00551	2.50831	15049.9	-3838.42	46.188	116.032
2.10528	2.52466	15148	-3936.53	46.188	116.786
2.20506	2.53817	15229	-4017.59	46.188	117.409
2.30484	2.54971	15298.2	-4086.81	46.188	117.94
2.40461	2.55978	15358.7	-4147.27	46.188	118.404
2.50439	2.56804	15408.2	-4196.82	46.188	118.785
2.60417	2.57279	15436.8	-4225.35	46.188	119.005
2.70394	2.57293	15437.6	-4226.15	46.188	119.012
2.80372	2.57102	15426.1	-4214.68	46.188	118.925
2.9035	2.57135	15428.1	-4216.65	46.188	118.941
3.00327	2.57588	15455.3	-4243.87	46.188	119.151
3.10305	2.5839	15503.4	-4291.99	46.188	119.522
3.20283	2.59347	15560.8	-4349.4	46.188	119.964
3.3026	2.6033	15619.8	-4408.38	46.188	120.417
3.40238	2.61292	15677.5	-4466.12	46.188	120.861
3.50216	2.6229	15737.4	-4525.98	46.188	121.32
3.60193	2.63431	15805.9	-4594.44	46.188	121.847
3.70171	2.64598	15875.9	-4664.45	46.188	122.385
3.80149	2.65427	15925.6	-4714.23	46.188	122.769
3.90126	2.65778	15946.7	-4735.27	46.188	122.932
4.00104	2.6594	15956.4	-4744.96	46.188	123.007
4.10082	2.66286	15977.2	-4765.76	46.188	123.166
4.20059	2.66958	16017.5	-4806.07	46.188	123.476
4.30037	2.67953	16077.2	-4865.73	46.188	123.934
4.40015	2.69342	16160.5	-4949.12	46.188	124.575
4.49992	2.71157	16269.4	-5057.99	46.188	125.412
4.5997	2.73139	16388.4	-5176.97	46.188	126.326
4.69947	2.74849	16491	-5279.58	46.188	127.115
4.79925	2.75933	16556	-5344.62	46.188	127.615
4.89903	2.76234	16574	-5362.63	46.188	127.753
4.9988	2.75782	16546.9	-5335.53	46.188	127.546
5.09858	2.74805	16488.3	-5276.92	46.188	127.095
5.19836	2.73604	16416.2	-5204.81	46.188	126.54
5.29813	2.72308	16338.5	-5127.07	46.188	125.942
5.39791	2.70983	16259	-5047.55	46.188	125.33
5.49769	2.6984	16190.4	-4978.94	46.188	124.803
5.59746	2.69094	16145.7	-4934.22	46.188	124.459
5.69724	2.68903	16134.2	-4922.74	46.188	124.371
5.79702	2.69397	16163.8	-4952.38	46.188	124.599
5.89679	2.70487	16229.2	-5017.82	46.188	125.103
5.99657	2.71726	16303.5	-5092.14	46.188	125.675
6.09635	2.72539	16352.3	-5140.96	46.188	126.051
6.19612	2.72549	16352.9	-5141.54	46.188	126.056
6.2959	2.71691	16301.5	-5090.1	46.188	125.662
6.39568	2.70239	16214.4	-5002.95	46.188	124.992
6.49545	2.68757	16125.4	-4913.99	46.188	124.307
6.59523	2.67852	16071.1	-4859.68	46.188	123.889
6.69501	2.67816	16069	-4857.53	46.188	123.872
6.79478	2.68597	16115.8	-4904.39	46.188	124.233
6.89456	2.69987	16199.2	-4987.8	46.188	124.875
6.99434	2.71656	16299.4	-5087.98	46.188	125.645
7.09411	2.73206	16392.4	-5180.98	46.188	126.361
7.19389	2.74309	16458.5	-5247.15	46.188	126.869
7.29366	2.74763	16485.8	-5274.41	46.188	127.078
7.39344	2.74555	16473.3	-5261.91	46.188	126.981
7.49322	2.73944	16436.6	-5225.22	46.188	126.699
7.59299	2.73278	16396.7	-5185.25	46.188	126.391
7.69277	2.72686	16361.2	-5149.76	46.188	126.117
7.79255	2.72067	16324	-5112.64	46.188	125.832
7.89232	2.71417	16285	-5073.63	46.188	125.532
7.9921	2.70962	16257.7	-5046.33	46.188	125.323
8.09188	2.70802	16248.1	-5036.73	46.188	125.25
8.19165	2.70787	16247.2	-5035.85	46.188	125.244
8.29143	2.70744	16244.6	-5033.24	46.188	125.224
8.39121	2.7063	16237.8	-5026.42	46.188	125.173
8.49098	2.70529	16231.7	-5020.32	46.188	125.126
8.59076	2.70505	16230.3	-5018.9	46.188	125.115
8.69054	2.70554	16233.2	-5021.82	46.188	125.136
8.79031	2.70637	16238.2	-5026.79	46.188	125.174
8.89009	2.70735	16244.1	-5032.73	46.188	125.219
8.98987	2.70888	16253.3	-5041.86	46.188	125.289
9.08964	2.7116	16269.6	-5058.21	46.188	125.415
9.18942	2.71562	16293.7	-5082.3	46.188	125.599
9.2892	2.72051	16323.1	-5111.66	46.188	125.824
9.38897	2.72622	16357.3	-5145.93	46.188	126.087
9.48875	2.73323	16399.4	-5187.98	46.188	126.411
9.58853	2.74114	16446.9	-5235.48	46.188	126.775
9.6883	2.74752	16485.1	-5273.76	46.188	127.07
9.78808	2.75022	16501.3	-5289.94	46.188	127.195
9.88785	2.74926	16495.5	-5284.14	46.188	127.151
